# Pbox  37000.00   3 4095  0.0     0    1.0000 0.06840     4
# VJ1.1C  pw (us)  pwr  pwrf  dres  dmf  dcyc   B1max (kHz)  Stype
# ---------------------------------------------------------------
# Pxsim 0.0370000 63.6158 0.500 300.0 0.0000000 0.0000000 0.00
# data: pw (s) B1max (Hz) status sw (Hz) T1 (s)   T2 (s) RDC (Hz)
# ---------------------------------------------------------------
# Pbox.inp data :
# ~~~~~~~~~~~~~~~~~~~~~~~~~~~Waves~~~~~~~~~~~~~~~~~~~~~~~~~~~~~~~~~~
#   shape   bw(/pw)   ofs  st  ph  fla  trev  d1  d2   d0   wrp  php
# ~~~~~~~~~~~~~~~~~~~~~~~~~~~~~~~~~~~~~~~~~~~~~~~~~~~~~~~~~~~~~~~~~~
# { rsnob 50 0 0.5 0 180 }
#
# type      = r          mod       = n          dres      = n         
# steps     = n          stepsize  = n          attn      = i         
# refofs    = n          wrap      = n          sfrq      = n         
# sucyc     = d          reps      = 2          header    = y         
# bscor     = n          pad1      = n          pad2      = n         
# bsim      = n          T1        = n          T2        = n         
# rdc       = n          dcyc      = n          sw        = n         
#
# RF Calibration Data :  ref_pwr   = 58         ref_pw90  = 6.50
# ~~~~~~~~~~~~~~~~~~~~~
###
# ------------------- Shape data ------------------
# pwtot      = 0.0370000 (total pw, s)
# power      = 3 (power level, dB)
# pwrf       = 4095 (fine power)
# B1max      = 0.0684 (B1max, kHz)
# B1rms      = 0.0280 (B1[RMS], kHz)
# nptot      = 200 (total number of steps)
# stepsize   = 185.00 (length of a single step, us)
# maxamp     = 952.4 (max amplitude)
# ------------------------------------------------- 
#      phase      amplitude   length     gate 
# ------------------------------------------------- 
        0.00      1023.00      0.0        0
     180.000       48.023      1.0        1
     180.000       48.261      1.0        1
     180.000       48.973      1.0        1
     180.000       50.151      1.0        1
     180.000       51.778      1.0        1
     180.000       53.836      1.0        1
     180.000       56.300      1.0        1
     180.000       59.139      1.0        1
     180.000       62.318      1.0        1
     180.000       65.799      1.0        1
     180.000       69.540      1.0        1
     180.000       73.494      1.0        1
     180.000       77.614      1.0        1
     180.000       81.850      1.0        1
     180.000       86.151      1.0        1
     180.000       90.464      1.0        1
     180.000       94.737      1.0        1
     180.000       98.918      1.0        1
     180.000      102.958      1.0        1
     180.000      106.806      1.0        1
     180.000      110.415      1.0        1
     180.000      113.740      1.0        1
     180.000      116.740      1.0        1
     180.000      119.376      1.0        1
     180.000      121.612      1.0        1
     180.000      123.418      1.0        1
     180.000      124.764      1.0        1
     180.000      125.627      1.0        1
     180.000      125.986      1.0        1
     180.000      125.826      1.0        1
     180.000      125.134      1.0        1
     180.000      123.899      1.0        1
     180.000      122.116      1.0        1
     180.000      119.782      1.0        1
     180.000      116.894      1.0        1
     180.000      113.455      1.0        1
     180.000      109.468      1.0        1
     180.000      104.935      1.0        1
     180.000       99.863      1.0        1
     180.000       94.257      1.0        1
     180.000       88.121      1.0        1
     180.000       81.461      1.0        1
     180.000       74.280      1.0        1
     180.000       66.580      1.0        1
     180.000       58.363      1.0        1
     180.000       49.629      1.0        1
     180.000       40.373      1.0        1
     180.000       30.591      1.0        1
     180.000       20.276      1.0        1
     180.000        9.419      1.0        1
       0.000        0.000      1.0        1
       0.000       11.970      1.0        1
       0.000       24.531      1.0        1
       0.000       37.692      1.0        1
       0.000       51.470      1.0        1
       0.000       65.883      1.0        1
       0.000       80.951      1.0        1
       0.000       96.691      1.0        1
       0.000      113.121      1.0        1
       0.000      130.257      1.0        1
       0.000      148.113      1.0        1
       0.000      166.699      1.0        1
       0.000      186.022      1.0        1
       0.000      206.087      1.0        1
       0.000      226.890      1.0        1
       0.000      248.426      1.0        1
       0.000      270.681      1.0        1
       0.000      293.637      1.0        1
       0.000      317.267      1.0        1
       0.000      341.537      1.0        1
       0.000      366.407      1.0        1
       0.000      391.828      1.0        1
       0.000      417.744      1.0        1
       0.000      444.090      1.0        1
       0.000      470.795      1.0        1
       0.000      497.778      1.0        1
       0.000      524.954      1.0        1
       0.000      552.227      1.0        1
       0.000      579.499      1.0        1
       0.000      606.662      1.0        1
       0.000      633.607      1.0        1
       0.000      660.219      1.0        1
       0.000      686.378      1.0        1
       0.000      711.964      1.0        1
       0.000      736.855      1.0        1
       0.000      760.928      1.0        1
       0.000      784.060      1.0        1
       0.000      806.132      1.0        1
       0.000      827.025      1.0        1
       0.000      846.627      1.0        1
       0.000      864.828      1.0        1
       0.000      881.526      1.0        1
       0.000      896.626      1.0        1
       0.000      910.041      1.0        1
       0.000      921.690      1.0        1
       0.000      931.507      1.0        1
       0.000      939.433      1.0        1
       0.000      945.419      1.0        1
       0.000      949.430      1.0        1
       0.000      951.441      2.0        1
       0.000      949.430      1.0        1
       0.000      945.419      1.0        1
       0.000      939.433      1.0        1
       0.000      931.507      1.0        1
       0.000      921.690      1.0        1
       0.000      910.041      1.0        1
       0.000      896.626      1.0        1
       0.000      881.526      1.0        1
       0.000      864.828      1.0        1
       0.000      846.627      1.0        1
       0.000      827.025      1.0        1
       0.000      806.132      1.0        1
       0.000      784.060      1.0        1
       0.000      760.928      1.0        1
       0.000      736.855      1.0        1
       0.000      711.964      1.0        1
       0.000      686.378      1.0        1
       0.000      660.219      1.0        1
       0.000      633.607      1.0        1
       0.000      606.662      1.0        1
       0.000      579.499      1.0        1
       0.000      552.227      1.0        1
       0.000      524.954      1.0        1
       0.000      497.778      1.0        1
       0.000      470.795      1.0        1
       0.000      444.090      1.0        1
       0.000      417.744      1.0        1
       0.000      391.828      1.0        1
       0.000      366.407      1.0        1
       0.000      341.537      1.0        1
       0.000      317.267      1.0        1
       0.000      293.637      1.0        1
       0.000      270.681      1.0        1
       0.000      248.426      1.0        1
       0.000      226.890      1.0        1
       0.000      206.087      1.0        1
       0.000      186.022      1.0        1
       0.000      166.699      1.0        1
       0.000      148.113      1.0        1
       0.000      130.257      1.0        1
       0.000      113.121      1.0        1
       0.000       96.691      1.0        1
       0.000       80.951      1.0        1
       0.000       65.883      1.0        1
       0.000       51.470      1.0        1
       0.000       37.692      1.0        1
       0.000       24.531      1.0        1
       0.000       11.970      1.0        1
       0.000        0.000      1.0        1
     180.000        9.419      1.0        1
     180.000       20.276      1.0        1
     180.000       30.591      1.0        1
     180.000       40.373      1.0        1
     180.000       49.629      1.0        1
     180.000       58.363      1.0        1
     180.000       66.580      1.0        1
     180.000       74.280      1.0        1
     180.000       81.461      1.0        1
     180.000       88.121      1.0        1
     180.000       94.257      1.0        1
     180.000       99.863      1.0        1
     180.000      104.935      1.0        1
     180.000      109.468      1.0        1
     180.000      113.455      1.0        1
     180.000      116.894      1.0        1
     180.000      119.782      1.0        1
     180.000      122.116      1.0        1
     180.000      123.899      1.0        1
     180.000      125.134      1.0        1
     180.000      125.826      1.0        1
     180.000      125.986      1.0        1
     180.000      125.627      1.0        1
     180.000      124.764      1.0        1
     180.000      123.418      1.0        1
     180.000      121.612      1.0        1
     180.000      119.376      1.0        1
     180.000      116.740      1.0        1
     180.000      113.740      1.0        1
     180.000      110.415      1.0        1
     180.000      106.806      1.0        1
     180.000      102.958      1.0        1
     180.000       98.918      1.0        1
     180.000       94.737      1.0        1
     180.000       90.464      1.0        1
     180.000       86.151      1.0        1
     180.000       81.850      1.0        1
     180.000       77.614      1.0        1
     180.000       73.494      1.0        1
     180.000       69.540      1.0        1
     180.000       65.799      1.0        1
     180.000       62.318      1.0        1
     180.000       59.139      1.0        1
     180.000       56.300      1.0        1
     180.000       53.836      1.0        1
     180.000       51.778      1.0        1
     180.000       50.151      1.0        1
     180.000       48.973      1.0        1
     180.000       48.261      1.0        1
     180.000       48.023      1.0        1
